Folder: Optimization-based-on-catalogue-selection-and-representation-of-Pareto-charts/Batteries

Note: README.md
# Optimization-based-on-catalogue-selection-and-representation-of-Pareto-charts
Application used to select the optimum component's performance through the use of Pareto chart. Performance calculator

File: pareto.csv
;TYPE;Model;Voltage_V;Capacity_mAh;Weight_g;Energy_density_Wh_kg;Imax_A;Pmax_W_kg;Energy_J;Dominated
16;KOKAM;KOKAM SLPB526495;3.7;3300;67;182.239;9.9;546.716;43956;0
18;KOKAM;KOKAM SLPB776495;3.7;5300;102;192.255;15.9;576.765;70596;0
19;KOKAM;KOKAM SLPB68106100;3.7;8000;160;185;24;555;106560;0
21;KOKAM;KOKAM SLPB98106100;3.7;10000;210;176.19;30;528.571;133200;0
22;KOKAM;KOKAM SLPB7570270;3.7;15000;317;175.079;45;525.237;199800;0
23;KOKAM;KOKAM SLPB125255255;3.7;87000;1780;180.843;261;542.528;1158840;0
24;KOKAM;KOKAM SLPB70460330;3.7;100000;2070;178.744;300;536.232;1332000;0
25;KOKAM;KOKAM SLPB120460330;3.7;150000;3210;172.897;450;518.692;1998000;0
26;KOKAM;KOKAM SLPB140460330;3.7;200000;4180;177.033;600;531.1;2664000;0
27;KOKAM;KOKAM SLPB160460330H;3.7;200000;4580;161.572;600;484.716;2664000;0
28;KOKAM;KOKAM SLPB160460330;3.7;240000;4780;185.774;720;557.322;3196800;0
29;ProLiteX;TP500-2SPX25J;7.4;500;30;123.333;25;6166.67;13320;0
31;ProLiteX;TP750-2SPX25J;7.4;750;39;142.308;37.5;7115.38;19980;0
33;ProLiteX;TP910-2SPX25J;7.4;910;47;143.277;45.5;7163.83;24242.4;0
35;ProLiteX;TP1350-2SPX25J;7.4;1350;61;163.77;67.5;8188.52;35964;0
37;ProLiteX;TP1350-2SPX25;7.4;1350;64;156.094;67.5;7804.69;35964;0
107;RAMPAGE;TP325-1SR70J;3.7;325;12;100.208;45.5;14029.2;4329;0
108;RAMPAGE;TP325-2SR70B;7.4;325;23;104.565;45.5;14639.1;8658;0
130;RAMPAGE;TP6600-3SR70;11.1;6600;527;139.013;924;19461.9;263736;0